Folder: ExperimentalProgram/SEM/010422/CL15_D/reports

Note: README.md
# ExperimentalProgram
Experimental data, photos and results

File: CL15_D Spectrum 1.txt
#FORMAT      : EMSA/MAS Spectral Data File
#VERSION     : 1.0
#TITLE       : Spectrum 1
#DATE        : 04-JAN-2022
#TIME        : 13:43
#OWNER       :
#NPOINTS     : 2048.0
#NCOLUMNS    : 1.0
#XUNITS      : keV
#YUNITS      : counts
#DATATYPE    : XY
#XPERCHAN    : 0.01
#OFFSET      : -0.2
#SIGNALTYPE  : EDS
#CHOFFSET    : 20.0
#LIVETIME    : 40.0
#REALTIME    : 42.7987
#BEAMKV      : 20.0
#MAGCAM      : 500.0
#XTILTSTGE   : 0.0
#AZIMANGLE   : 0.0
#ELEVANGLE   : 35.0
#XPOSITION mm: 7.7026
#YPOSITION mm: -0.2656
#ZPOSITION mm: 10.0000
##OXINSTPT   : 4
##OXINSTSTROB: 43.51
##OXINSTNDET : 1
##OXINSTELEMS: 6,26,8,25,14,24,16,23
##OXINSTLABEL: 6, 0.277, C
##OXINSTLABEL: 26, 6.404, Fe
##OXINSTLABEL: 26, 7.058, Fe
##OXINSTLABEL: 26, 0.703, Fe
##OXINSTLABEL: 26, 0.615, Fe
##OXINSTLABEL: 8, 0.525, O
##OXINSTLABEL: 25, 5.899, Mn
##OXINSTLABEL: 25, 6.490, Mn
##OXINSTLABEL: 25, 0.636, Mn
##OXINSTLABEL: 25, 0.556, Mn
##OXINSTLABEL: 14, 1.740, Si
##OXINSTLABEL: 24, 5.415, Cr
##OXINSTLABEL: 24, 5.947, Cr
##OXINSTLABEL: 24, 0.573, Cr
##OXINSTLABEL: 24, 0.500, Cr
##OXINSTLABEL: 16, 2.308, S
##OXINSTLABEL: 16, 2.464, S
##OXINSTLABEL: 23, 4.952, V
##OXINSTLABEL: 23, 5.427, V
##OXINSTLABEL: 23, 0.511, V
##OXINSTLABEL: 23, 0.446, V
#SPECTRUM    : Spectral Data Starts Here
-0.20000, 0.0
-0.13000, 0.0
-0.06000, 1.0
0.01000, 1395.0
0.08000, 313.0
0.15000, 154.0
0.22000, 347.0
0.29000, 1620.0
0.36000, 292.0
0.43000, 422.0
0.50000, 1271.0
0.57000, 1685.0
0.64000, 4071.0
0.71000, 11970.0
0.78000, 616.0
0.85000, 235.0
0.92000, 295.0
0.99000, 282.0
1.06000, 293.0
1.13000, 322.0
1.20000, 362.0
1.27000, 397.0
1.34000, 388.0
1.41000, 405.0
1.48000, 401.0
1.55000, 419.0
1.62000, 457.0
1.69000, 473.0
1.76000, 582.0
1.83000, 457.0
1.90000, 432.0
1.97000, 469.0
2.04000, 457.0
2.11000, 442.0
2.18000, 451.0
2.25000, 486.0
2.32000, 519.0
2.39000, 474.0
2.46000, 434.0
2.53000, 446.0
2.60000, 442.0
2.67000, 476.0
2.74000, 446.0
2.81000, 401.0
2.88000, 376.0
2.95000, 407.0
3.02000, 421.0
3.09000, 434.0
3.16000, 412.0
3.23000, 387.0
3.30000, 373.0
3.37000, 389.0
3.44000, 378.0
3.51000, 361.0
3.58000, 375.0
3.65000, 354.0
3.72000, 332.0
3.79000, 358.0
3.86000, 340.0
3.93000, 340.0
4.00000, 328.0
4.07000, 355.0
4.14000, 343.0
4.21000, 299.0
4.28000, 356.0
4.35000, 281.0
4.42000, 292.0
4.49000, 293.0
4.56000, 303.0
4.63000, 340.0
4.70000, 307.0
4.77000, 274.0
4.84000, 296.0
4.91000, 325.0
4.98000, 289.0
5.05000, 284.0
5.12000, 261.0
5.19000, 258.0
5.26000, 264.0
5.33000, 312.0
5.40000, 328.0
5.47000, 297.0
5.54000, 247.0
5.61000, 230.0
5.68000, 244.0
5.75000, 213.0
5.82000, 341.0
5.89000, 540.0
5.96000, 378.0
6.03000, 250.0
6.10000, 213.0
6.17000, 260.0
6.24000, 631.0
6.31000, 5288.0
6.38000, 17477.0
6.45000, 12581.0
6.52000, 2074.0
6.59000, 290.0
6.66000, 237.0
6.73000, 232.0
6.80000, 223.0
6.87000, 269.0
6.94000, 604.0
7.01000, 1992.0
7.08000, 2250.0
7.15000, 782.0
7.22000, 206.0
7.29000, 124.0
7.36000, 132.0
7.43000, 129.0
7.50000, 116.0
7.57000, 103.0
7.64000, 122.0
7.71000, 107.0
7.78000, 106.0
7.85000, 113.0
7.92000, 104.0
7.99000, 135.0
8.06000, 138.0
8.13000, 106.0
8.20000, 95.0
8.27000, 119.0
8.34000, 113.0
8.41000, 98.0
8.48000, 103.0
8.55000, 111.0
8.62000, 98.0
8.69000, 98.0
8.76000, 87.0
8.83000, 94.0
8.90000, 100.0
8.97000, 96.0
9.04000, 94.0
9.11000, 111.0
9.18000, 91.0
9.25000, 92.0
9.32000, 96.0
9.39000, 91.0
9.46000, 89.0
9.53000, 109.0
9.60000, 94.0
9.67000, 86.0
9.74000, 97.0
9.81000, 84.0
9.88000, 75.0
9.95000, 79.0
10.02000, 90.0
10.09000, 78.0
10.16000, 79.0
10.23000, 90.0
10.30000, 78.0
10.37000, 85.0
10.44000, 67.0
10.51000, 72.0
10.58000, 73.0
10.65000, 88.0
10.72000, 69.0
10.79000, 73.0
10.86000, 56.0
10.93000, 62.0
11.00000, 73.0
11.07000, 75.0
11.14000, 71.0
11.21000, 66.0
11.28000, 46.0
11.35000, 73.0
11.42000, 69.0
11.49000, 59.0
11.56000, 58.0
11.63000, 64.0
11.70000, 47.0
11.77000, 48.0
11.84000, 50.0
11.91000, 42.0
11.98000, 67.0
12.05000, 48.0
12.12000, 59.0
12.19000, 48.0
12.26000, 58.0
12.33000, 56.0
12.40000, 51.0
12.47000, 37.0
12.54000, 51.0
12.61000, 48.0
12.68000, 53.0
12.75000, 70.0
12.82000, 59.0
12.89000, 50.0
12.96000, 47.0
13.03000, 40.0
13.10000, 34.0
13.17000, 51.0
13.24000, 40.0
13.31000, 32.0
13.38000, 48.0
13.45000, 47.0
13.52000, 51.0
13.59000, 36.0
13.66000, 33.0
13.73000, 39.0
13.80000, 32.0
13.87000, 33.0
13.94000, 32.0
14.01000, 28.0
14.08000, 29.0
14.15000, 25.0
14.22000, 27.0
14.29000, 37.0
14.36000, 29.0
14.43000, 24.0
14.50000, 25.0
14.57000, 33.0
14.64000, 20.0
14.71000, 23.0
14.78000, 23.0
14.85000, 22.0
14.92000, 16.0
14.99000, 20.0
15.06000, 29.0
15.13000, 25.0
15.20000, 21.0
15.27000, 22.0
15.34000, 13.0
15.41000, 18.0
15.48000, 15.0
15.55000, 16.0
15.62000, 17.0
15.69000, 19.0
15.76000, 21.0
15.83000, 16.0
15.90000, 10.0
15.97000, 15.0
16.04000, 13.0
16.11000, 12.0
16.18000, 12.0
16.25000, 7.0
16.32000, 16.0
16.39000, 10.0
16.46000, 13.0
16.53000, 11.0
16.60000, 12.0
16.67000, 16.0
16.74000, 7.0
16.81000, 9.0
16.88000, 4.0
16.95000, 9.0
17.02000, 10.0
17.09000, 14.0
17.16000, 13.0
17.23000, 7.0
17.30000, 11.0
17.37000, 7.0
17.44000, 9.0
17.51000, 8.0
17.58000, 7.0
17.65000, 3.0
17.72000, 5.0
17.79000, 6.0
17.86000, 6.0
17.93000, 8.0
18.00000, 6.0
18.07000, 3.0
18.14000, 3.0
18.21000, 7.0
18.28000, 3.0
18.35000, 3.0
18.42000, 4.0
18.49000, 5.0
18.56000, 2.0
18.63000, 4.0
18.70000, 7.0
18.77000, 2.0
18.84000, 2.0
18.91000, 5.0
18.98000, 2.0
19.05000, 0.0
19.12000, 3.0
19.19000, 4.0
19.26000, 0.0
19.33000, 3.0
19.40000, 0.0
19.47000, 2.0
19.54000, 1.0
19.61000, 0.0
19.68000, 0.0
19.75000, 1.0
19.82000, 1.0
19.89000, 0.0
19.96000, 0.0
20.03000, 1.0
20.10000, 1.0
20.17000, 0.0
20.24000, 1.0
20.27000, 0.0
#ENDOFDATA   :

File: CL15_D Spectrum 2.txt
#FORMAT      : EMSA/MAS Spectral Data File
#VERSION     : 1.0
#TITLE       : Spectrum 2
#DATE        : 04-JAN-2022
#TIME        : 13:49
#OWNER       :
#NPOINTS     : 2048.0
#NCOLUMNS    : 1.0
#XUNITS      : keV
#YUNITS      : counts
#DATATYPE    : XY
#XPERCHAN    : 0.01
#OFFSET      : -0.2
#SIGNALTYPE  : EDS
#CHOFFSET    : 20.0
#LIVETIME    : 40.0
#REALTIME    : 42.5244
#BEAMKV      : 20.0
#MAGCAM      : 500.0
#XTILTSTGE   : 0.0
#AZIMANGLE   : 0.0
#ELEVANGLE   : 35.0
#XPOSITION mm: 9.8132
#YPOSITION mm: -6.3588
#ZPOSITION mm: 10.0000
##OXINSTPT   : 4
##OXINSTSTROB: 43.50
##OXINSTNDET : 1
##OXINSTELEMS: 6,26,25,8,14,16,23,24,29
##OXINSTLABEL: 6, 0.277, C
##OXINSTLABEL: 26, 6.404, Fe
##OXINSTLABEL: 26, 7.058, Fe
##OXINSTLABEL: 26, 0.703, Fe
##OXINSTLABEL: 26, 0.615, Fe
##OXINSTLABEL: 25, 5.899, Mn
##OXINSTLABEL: 25, 6.490, Mn
##OXINSTLABEL: 25, 0.636, Mn
##OXINSTLABEL: 25, 0.556, Mn
##OXINSTLABEL: 8, 0.525, O
##OXINSTLABEL: 14, 1.740, Si
##OXINSTLABEL: 16, 2.308, S
##OXINSTLABEL: 16, 2.464, S
##OXINSTLABEL: 23, 4.952, V
##OXINSTLABEL: 23, 5.427, V
##OXINSTLABEL: 23, 0.511, V
##OXINSTLABEL: 23, 0.446, V
##OXINSTLABEL: 24, 5.415, Cr
##OXINSTLABEL: 24, 5.947, Cr
##OXINSTLABEL: 24, 0.573, Cr
##OXINSTLABEL: 24, 0.500, Cr
##OXINSTLABEL: 29, 8.048, Cu
##OXINSTLABEL: 29, 8.905, Cu
##OXINSTLABEL: 29, 0.930, Cu
##OXINSTLABEL: 29, 0.832, Cu
##OXINSTLABEL: 29, 0.811, Cu
#SPECTRUM    : Spectral Data Starts Here
-0.20000, 0.0
-0.13000, 0.0
-0.06000, 0.0
0.01000, 1370.0
0.08000, 286.0
0.15000, 123.0
0.22000, 283.0
0.29000, 1157.0
0.36000, 235.0
0.43000, 333.0
0.50000, 946.0
0.57000, 1466.0
0.64000, 3649.0
0.71000, 10082.0
0.78000, 531.0
0.85000, 211.0
0.92000, 234.0
0.99000, 227.0
1.06000, 254.0
1.13000, 276.0
1.20000, 294.0
1.27000, 343.0
1.34000, 331.0
1.41000, 345.0
1.48000, 356.0
1.55000, 386.0
1.62000, 354.0
1.69000, 387.0
1.76000, 515.0
1.83000, 393.0
1.90000, 379.0
1.97000, 410.0
2.04000, 391.0
2.11000, 389.0
2.18000, 402.0
2.25000, 422.0
2.32000, 477.0
2.39000, 396.0
2.46000, 411.0
2.53000, 417.0
2.60000, 413.0
2.67000, 381.0
2.74000, 364.0
2.81000, 371.0
2.88000, 348.0
2.95000, 353.0
3.02000, 350.0
3.09000, 360.0
3.16000, 375.0
3.23000, 366.0
3.30000, 343.0
3.37000, 325.0
3.44000, 359.0
3.51000, 337.0
3.58000, 333.0
3.65000, 323.0
3.72000, 323.0
3.79000, 314.0
3.86000, 322.0
3.93000, 318.0
4.00000, 297.0
4.07000, 315.0
4.14000, 289.0
4.21000, 304.0
4.28000, 298.0
4.35000, 270.0
4.42000, 289.0
4.49000, 274.0
4.56000, 301.0
4.63000, 347.0
4.70000, 305.0
4.77000, 259.0
4.84000, 286.0
4.91000, 289.0
4.98000, 295.0
5.05000, 248.0
5.12000, 237.0
5.19000, 249.0
5.26000, 231.0
5.33000, 254.0
5.40000, 286.0
5.47000, 244.0
5.54000, 229.0
5.61000, 191.0
5.68000, 228.0
5.75000, 228.0
5.82000, 316.0
5.89000, 495.0
5.96000, 356.0
6.03000, 232.0
6.10000, 223.0
6.17000, 250.0
6.24000, 548.0
6.31000, 5022.0
6.38000, 16144.0
6.45000, 11859.0
6.52000, 2023.0
6.59000, 282.0
6.66000, 193.0
6.73000, 202.0
6.80000, 227.0
6.87000, 259.0
6.94000, 517.0
7.01000, 1860.0
7.08000, 2113.0
7.15000, 760.0
7.22000, 158.0
7.29000, 95.0
7.36000, 113.0
7.43000, 125.0
7.50000, 126.0
7.57000, 102.0
7.64000, 110.0
7.71000, 109.0
7.78000, 105.0
7.85000, 97.0
7.92000, 95.0
7.99000, 120.0
8.06000, 121.0
8.13000, 92.0
8.20000, 94.0
8.27000, 95.0
8.34000, 95.0
8.41000, 93.0
8.48000, 99.0
8.55000, 105.0
8.62000, 90.0
8.69000, 82.0
8.76000, 88.0
8.83000, 104.0
8.90000, 85.0
8.97000, 75.0
9.04000, 86.0
9.11000, 96.0
9.18000, 101.0
9.25000, 98.0
9.32000, 71.0
9.39000, 83.0
9.46000, 76.0
9.53000, 76.0
9.60000, 81.0
9.67000, 78.0
9.74000, 81.0
9.81000, 69.0
9.88000, 79.0
9.95000, 87.0
10.02000, 78.0
10.09000, 83.0
10.16000, 84.0
10.23000, 79.0
10.30000, 70.0
10.37000, 60.0
10.44000, 74.0
10.51000, 62.0
10.58000, 65.0
10.65000, 76.0
10.72000, 61.0
10.79000, 75.0
10.86000, 63.0
10.93000, 61.0
11.00000, 59.0
11.07000, 57.0
11.14000, 62.0
11.21000, 55.0
11.28000, 65.0
11.35000, 66.0
11.42000, 49.0
11.49000, 53.0
11.56000, 55.0
11.63000, 54.0
11.70000, 58.0
11.77000, 46.0
11.84000, 55.0
11.91000, 56.0
11.98000, 46.0
12.05000, 46.0
12.12000, 46.0
12.19000, 53.0
12.26000, 56.0
12.33000, 53.0
12.40000, 49.0
12.47000, 48.0
12.54000, 61.0
12.61000, 47.0
12.68000, 44.0
12.75000, 58.0
12.82000, 66.0
12.89000, 51.0
12.96000, 40.0
13.03000, 41.0
13.10000, 27.0
13.17000, 39.0
13.24000, 32.0
13.31000, 32.0
13.38000, 49.0
13.45000, 44.0
13.52000, 34.0
13.59000, 28.0
13.66000, 32.0
13.73000, 39.0
13.80000, 28.0
13.87000, 28.0
13.94000, 42.0
14.01000, 36.0
14.08000, 33.0
14.15000, 23.0
14.22000, 18.0
14.29000, 24.0
14.36000, 28.0
14.43000, 26.0
14.50000, 21.0
14.57000, 12.0
14.64000, 13.0
14.71000, 29.0
14.78000, 24.0
14.85000, 23.0
14.92000, 20.0
14.99000, 16.0
15.06000, 15.0
15.13000, 17.0
15.20000, 14.0
15.27000, 11.0
15.34000, 25.0
15.41000, 28.0
15.48000, 24.0
15.55000, 18.0
15.62000, 14.0
15.69000, 22.0
15.76000, 12.0
15.83000, 22.0
15.90000, 8.0
15.97000, 17.0
16.04000, 13.0
16.11000, 16.0
16.18000, 9.0
16.25000, 13.0
16.32000, 12.0
16.39000, 15.0
16.46000, 11.0
16.53000, 14.0
16.60000, 8.0
16.67000, 14.0
16.74000, 11.0
16.81000, 11.0
16.88000, 13.0
16.95000, 8.0
17.02000, 12.0
17.09000, 9.0
17.16000, 11.0
17.23000, 10.0
17.30000, 3.0
17.37000, 7.0
17.44000, 10.0
17.51000, 6.0
17.58000, 7.0
17.65000, 9.0
17.72000, 7.0
17.79000, 6.0
17.86000, 5.0
17.93000, 7.0
18.00000, 3.0
18.07000, 4.0
18.14000, 4.0
18.21000, 3.0
18.28000, 3.0
18.35000, 2.0
18.42000, 8.0
18.49000, 2.0
18.56000, 2.0
18.63000, 3.0
18.70000, 2.0
18.77000, 3.0
18.84000, 1.0
18.91000, 1.0
18.98000, 3.0
19.05000, 1.0
19.12000, 2.0
19.19000, 1.0
19.26000, 1.0
19.33000, 4.0
19.40000, 0.0
19.47000, 2.0
19.54000, 0.0
19.61000, 1.0
19.68000, 1.0
19.75000, 2.0
19.82000, 2.0
19.89000, 0.0
19.96000, 0.0
20.03000, 0.0
20.10000, 0.0
20.17000, 0.0
20.24000, 0.0
20.27000, 0.0
#ENDOFDATA   :

File: CL15_D Spectrum 3.txt
#FORMAT      : EMSA/MAS Spectral Data File
#VERSION     : 1.0
#TITLE       : Spectrum 3
#DATE        : 04-JAN-2022
#TIME        : 13:59
#OWNER       :
#NPOINTS     : 2048.0
#NCOLUMNS    : 1.0
#XUNITS      : keV
#YUNITS      : counts
#DATATYPE    : XY
#XPERCHAN    : 0.01
#OFFSET      : -0.2
#SIGNALTYPE  : EDS
#CHOFFSET    : 20.0
#LIVETIME    : 40.0
#REALTIME    : 41.5926
#BEAMKV      : 20.0
#MAGCAM      : 500.0
#XTILTSTGE   : 0.0
#AZIMANGLE   : 0.0
#ELEVANGLE   : 35.0
#XPOSITION mm: 6.2618
#YPOSITION mm: 3.3867
#ZPOSITION mm: 10.0000
##OXINSTPT   : 4
##OXINSTSTROB: 43.49
##OXINSTNDET : 1
##OXINSTELEMS: 6,26,25,8,16,24,14
##OXINSTLABEL: 6, 0.277, C
##OXINSTLABEL: 26, 6.404, Fe
##OXINSTLABEL: 26, 7.058, Fe
##OXINSTLABEL: 26, 0.703, Fe
##OXINSTLABEL: 26, 0.615, Fe
##OXINSTLABEL: 25, 5.899, Mn
##OXINSTLABEL: 25, 6.490, Mn
##OXINSTLABEL: 25, 0.636, Mn
##OXINSTLABEL: 25, 0.556, Mn
##OXINSTLABEL: 8, 0.525, O
##OXINSTLABEL: 16, 2.308, S
##OXINSTLABEL: 16, 2.464, S
##OXINSTLABEL: 24, 5.415, Cr
##OXINSTLABEL: 24, 5.947, Cr
##OXINSTLABEL: 24, 0.573, Cr
##OXINSTLABEL: 24, 0.500, Cr
##OXINSTLABEL: 14, 1.740, Si
#SPECTRUM    : Spectral Data Starts Here
-0.20000, 0.0
-0.13000, 0.0
-0.06000, 3.0
0.01000, 1433.0
0.08000, 261.0
0.15000, 72.0
0.22000, 178.0
0.29000, 777.0
0.36000, 116.0
0.43000, 160.0
0.50000, 473.0
0.57000, 698.0
0.64000, 1729.0
0.71000, 4877.0
0.78000, 229.0
0.85000, 99.0
0.92000, 121.0
0.99000, 124.0
1.06000, 133.0
1.13000, 145.0
1.20000, 165.0
1.27000, 162.0
1.34000, 149.0
1.41000, 148.0
1.48000, 173.0
1.55000, 175.0
1.62000, 177.0
1.69000, 200.0
1.76000, 231.0
1.83000, 184.0
1.90000, 188.0
1.97000, 178.0
2.04000, 177.0
2.11000, 205.0
2.18000, 187.0
2.25000, 178.0
2.32000, 256.0
2.39000, 211.0
2.46000, 215.0
2.53000, 175.0
2.60000, 185.0
2.67000, 196.0
2.74000, 189.0
2.81000, 166.0
2.88000, 183.0
2.95000, 173.0
3.02000, 187.0
3.09000, 173.0
3.16000, 155.0
3.23000, 176.0
3.30000, 182.0
3.37000, 178.0
3.44000, 172.0
3.51000, 177.0
3.58000, 151.0
3.65000, 146.0
3.72000, 175.0
3.79000, 158.0
3.86000, 170.0
3.93000, 159.0
4.00000, 161.0
4.07000, 150.0
4.14000, 153.0
4.21000, 157.0
4.28000, 147.0
4.35000, 155.0
4.42000, 146.0
4.49000, 144.0
4.56000, 147.0
4.63000, 171.0
4.70000, 171.0
4.77000, 139.0
4.84000, 143.0
4.91000, 155.0
4.98000, 163.0
5.05000, 147.0
5.12000, 127.0
5.19000, 122.0
5.26000, 133.0
5.33000, 130.0
5.40000, 170.0
5.47000, 149.0
5.54000, 137.0
5.61000, 119.0
5.68000, 139.0
5.75000, 112.0
5.82000, 170.0
5.89000, 283.0
5.96000, 229.0
6.03000, 127.0
6.10000, 127.0
6.17000, 134.0
6.24000, 347.0
6.31000, 3069.0
6.38000, 9831.0
6.45000, 7050.0
6.52000, 1145.0
6.59000, 141.0
6.66000, 121.0
6.73000, 117.0
6.80000, 108.0
6.87000, 135.0
6.94000, 370.0
7.01000, 1163.0
7.08000, 1331.0
7.15000, 416.0
7.22000, 89.0
7.29000, 61.0
7.36000, 53.0
7.43000, 63.0
7.50000, 48.0
7.57000, 59.0
7.64000, 50.0
7.71000, 45.0
7.78000, 47.0
7.85000, 46.0
7.92000, 54.0
7.99000, 58.0
8.06000, 58.0
8.13000, 72.0
8.20000, 43.0
8.27000, 51.0
8.34000, 45.0
8.41000, 54.0
8.48000, 46.0
8.55000, 40.0
8.62000, 46.0
8.69000, 36.0
8.76000, 55.0
8.83000, 51.0
8.90000, 56.0
8.97000, 40.0
9.04000, 52.0
9.11000, 54.0
9.18000, 50.0
9.25000, 47.0
9.32000, 48.0
9.39000, 36.0
9.46000, 40.0
9.53000, 44.0
9.60000, 43.0
9.67000, 43.0
9.74000, 39.0
9.81000, 31.0
9.88000, 40.0
9.95000, 33.0
10.02000, 35.0
10.09000, 36.0
10.16000, 35.0
10.23000, 35.0
10.30000, 45.0
10.37000, 43.0
10.44000, 45.0
10.51000, 31.0
10.58000, 34.0
10.65000, 36.0
10.72000, 31.0
10.79000, 32.0
10.86000, 37.0
10.93000, 35.0
11.00000, 28.0
11.07000, 33.0
11.14000, 39.0
11.21000, 30.0
11.28000, 27.0
11.35000, 38.0
11.42000, 28.0
11.49000, 30.0
11.56000, 34.0
11.63000, 31.0
11.70000, 28.0
11.77000, 33.0
11.84000, 29.0
11.91000, 25.0
11.98000, 27.0
12.05000, 20.0
12.12000, 36.0
12.19000, 33.0
12.26000, 19.0
12.33000, 33.0
12.40000, 24.0
12.47000, 20.0
12.54000, 25.0
12.61000, 25.0
12.68000, 25.0
12.75000, 38.0
12.82000, 25.0
12.89000, 29.0
12.96000, 25.0
13.03000, 25.0
13.10000, 25.0
13.17000, 22.0
13.24000, 21.0
13.31000, 25.0
13.38000, 18.0
13.45000, 22.0
13.52000, 27.0
13.59000, 16.0
13.66000, 18.0
13.73000, 25.0
13.80000, 18.0
13.87000, 14.0
13.94000, 27.0
14.01000, 21.0
14.08000, 15.0
14.15000, 17.0
14.22000, 10.0
14.29000, 12.0
14.36000, 14.0
14.43000, 12.0
14.50000, 12.0
14.57000, 17.0
14.64000, 13.0
14.71000, 17.0
14.78000, 10.0
14.85000, 13.0
14.92000, 15.0
14.99000, 15.0
15.06000, 13.0
15.13000, 13.0
15.20000, 15.0
15.27000, 8.0
15.34000, 19.0
15.41000, 5.0
15.48000, 6.0
15.55000, 8.0
15.62000, 7.0
15.69000, 11.0
15.76000, 10.0
15.83000, 6.0
15.90000, 7.0
15.97000, 9.0
16.04000, 8.0
16.11000, 5.0
16.18000, 11.0
16.25000, 5.0
16.32000, 9.0
16.39000, 4.0
16.46000, 8.0
16.53000, 9.0
16.60000, 5.0
16.67000, 10.0
16.74000, 11.0
16.81000, 9.0
16.88000, 5.0
16.95000, 3.0
17.02000, 4.0
17.09000, 5.0
17.16000, 2.0
17.23000, 7.0
17.30000, 4.0
17.37000, 4.0
17.44000, 14.0
17.51000, 2.0
17.58000, 3.0
17.65000, 2.0
17.72000, 5.0
17.79000, 4.0
17.86000, 7.0
17.93000, 5.0
18.00000, 0.0
18.07000, 0.0
18.14000, 2.0
18.21000, 3.0
18.28000, 5.0
18.35000, 4.0
18.42000, 4.0
18.49000, 2.0
18.56000, 4.0
18.63000, 1.0
18.70000, 0.0
18.77000, 2.0
18.84000, 2.0
18.91000, 2.0
18.98000, 1.0
19.05000, 1.0
19.12000, 1.0
19.19000, 1.0
19.26000, 1.0
19.33000, 0.0
19.40000, 1.0
19.47000, 1.0
19.54000, 0.0
19.61000, 0.0
19.68000, 0.0
19.75000, 0.0
19.82000, 0.0
19.89000, 1.0
19.96000, 0.0
20.03000, 0.0
20.10000, 0.0
20.17000, 0.0
20.24000, 0.0
20.27000, 0.0
#ENDOFDATA   :