Folder: ExperimentalProgram/SEM

Note: README.md
# ExperimentalProgram
Experimental data, photos and results

File: CL10_B Spectrum 1.txt
#FORMAT      : EMSA/MAS Spectral Data File
#VERSION     : 1.0
#TITLE       : Spectrum 2
#DATE        : 20-DEC-2021
#TIME        : 12:04
#OWNER       :
#NPOINTS     : 2048.0
#NCOLUMNS    : 1.0
#XUNITS      : keV
#YUNITS      : counts
#DATATYPE    : XY
#XPERCHAN    : 0.01
#OFFSET      : -0.2
#SIGNALTYPE  : EDS
#CHOFFSET    : 20.0
#LIVETIME    : 40.0
#REALTIME    : 43.813
#BEAMKV      : 20.0
#MAGCAM      : 500.0
#XTILTSTGE   : 0.0
#AZIMANGLE   : 0.0
#ELEVANGLE   : 35.0
#XPOSITION mm: -5.3894
#YPOSITION mm: -5.0175
#ZPOSITION mm: 8.2000
##OXINSTPT   : 4
##OXINSTSTROB: 43.61
##OXINSTNDET : 1
##OXINSTELEMS: 6,25,26,14,16,23,24
##OXINSTLABEL: 6, 0.277, C
##OXINSTLABEL: 25, 5.899, Mn
##OXINSTLABEL: 25, 6.490, Mn
##OXINSTLABEL: 25, 0.636, Mn
##OXINSTLABEL: 25, 0.556, Mn
##OXINSTLABEL: 26, 6.404, Fe
##OXINSTLABEL: 26, 7.058, Fe
##OXINSTLABEL: 26, 0.703, Fe
##OXINSTLABEL: 26, 0.615, Fe
##OXINSTLABEL: 14, 1.740, Si
##OXINSTLABEL: 16, 2.308, S
##OXINSTLABEL: 16, 2.464, S
##OXINSTLABEL: 23, 4.952, V
##OXINSTLABEL: 23, 5.427, V
##OXINSTLABEL: 23, 0.511, V
##OXINSTLABEL: 23, 0.446, V
##OXINSTLABEL: 24, 5.415, Cr
##OXINSTLABEL: 24, 5.947, Cr
##OXINSTLABEL: 24, 0.573, Cr
##OXINSTLABEL: 24, 0.500, Cr
#SPECTRUM    : Spectral Data Starts Here
-0.20000, 0.0
-0.13000, 0.0
-0.06000, 1.0
0.01000, 1324.0
0.08000, 358.0
0.15000, 201.0
0.22000, 399.0
0.29000, 1258.0
0.36000, 327.0
0.43000, 490.0
0.50000, 1201.0
0.57000, 2188.0
0.64000, 5610.0
0.71000, 15781.0
0.78000, 813.0
0.85000, 325.0
0.92000, 330.0
0.99000, 339.0
1.06000, 396.0
1.13000, 435.0
1.20000, 408.0
1.27000, 500.0
1.34000, 502.0
1.41000, 487.0
1.48000, 561.0
1.55000, 521.0
1.62000, 531.0
1.69000, 630.0
1.76000, 762.0
1.83000, 553.0
1.90000, 564.0
1.97000, 603.0
2.04000, 606.0
2.11000, 590.0
2.18000, 595.0
2.25000, 633.0
2.32000, 753.0
2.39000, 629.0
2.46000, 617.0
2.53000, 584.0
2.60000, 566.0
2.67000, 613.0
2.74000, 561.0
2.81000, 564.0
2.88000, 574.0
2.95000, 565.0
3.02000, 551.0
3.09000, 529.0
3.16000, 518.0
3.23000, 489.0
3.30000, 525.0
3.37000, 500.0
3.44000, 500.0
3.51000, 472.0
3.58000, 479.0
3.65000, 517.0
3.72000, 517.0
3.79000, 484.0
3.86000, 448.0
3.93000, 494.0
4.00000, 460.0
4.07000, 435.0
4.14000, 428.0
4.21000, 465.0
4.28000, 407.0
4.35000, 427.0
4.42000, 416.0
4.49000, 392.0
4.56000, 409.0
4.63000, 463.0
4.70000, 461.0
4.77000, 402.0
4.84000, 364.0
4.91000, 422.0
4.98000, 418.0
5.05000, 385.0
5.12000, 367.0
5.19000, 354.0
5.26000, 363.0
5.33000, 390.0
5.40000, 452.0
5.47000, 388.0
5.54000, 321.0
5.61000, 319.0
5.68000, 339.0
5.75000, 330.0
5.82000, 490.0
5.89000, 764.0
5.96000, 590.0
6.03000, 328.0
6.10000, 344.0
6.17000, 383.0
6.24000, 824.0
6.31000, 7394.0
6.38000, 24225.0
6.45000, 17262.0
6.52000, 3024.0
6.59000, 393.0
6.66000, 310.0
6.73000, 278.0
6.80000, 278.0
6.87000, 353.0
6.94000, 841.0
7.01000, 2669.0
7.08000, 3227.0
7.15000, 1158.0
7.22000, 255.0
7.29000, 174.0
7.36000, 174.0
7.43000, 160.0
7.50000, 169.0
7.57000, 131.0
7.64000, 142.0
7.71000, 142.0
7.78000, 148.0
7.85000, 148.0
7.92000, 164.0
7.99000, 177.0
8.06000, 151.0
8.13000, 156.0
8.20000, 136.0
8.27000, 143.0
8.34000, 135.0
8.41000, 148.0
8.48000, 141.0
8.55000, 143.0
8.62000, 128.0
8.69000, 139.0
8.76000, 146.0
8.83000, 142.0
8.90000, 146.0
8.97000, 148.0
9.04000, 120.0
9.11000, 141.0
9.18000, 117.0
9.25000, 132.0
9.32000, 131.0
9.39000, 102.0
9.46000, 131.0
9.53000, 131.0
9.60000, 109.0
9.67000, 141.0
9.74000, 117.0
9.81000, 98.0
9.88000, 120.0
9.95000, 107.0
10.02000, 115.0
10.09000, 118.0
10.16000, 121.0
10.23000, 110.0
10.30000, 113.0
10.37000, 114.0
10.44000, 96.0
10.51000, 106.0
10.58000, 100.0
10.65000, 102.0
10.72000, 109.0
10.79000, 93.0
10.86000, 106.0
10.93000, 106.0
11.00000, 97.0
11.07000, 95.0
11.14000, 91.0
11.21000, 86.0
11.28000, 83.0
11.35000, 85.0
11.42000, 88.0
11.49000, 98.0
11.56000, 82.0
11.63000, 65.0
11.70000, 85.0
11.77000, 93.0
11.84000, 70.0
11.91000, 68.0
11.98000, 87.0
12.05000, 76.0
12.12000, 62.0
12.19000, 75.0
12.26000, 71.0
12.33000, 69.0
12.40000, 67.0
12.47000, 66.0
12.54000, 64.0
12.61000, 63.0
12.68000, 96.0
12.75000, 106.0
12.82000, 121.0
12.89000, 103.0
12.96000, 54.0
13.03000, 48.0
13.10000, 63.0
13.17000, 68.0
13.24000, 58.0
13.31000, 52.0
13.38000, 60.0
13.45000, 66.0
13.52000, 65.0
13.59000, 44.0
13.66000, 54.0
13.73000, 42.0
13.80000, 35.0
13.87000, 45.0
13.94000, 49.0
14.01000, 37.0
14.08000, 40.0
14.15000, 41.0
14.22000, 41.0
14.29000, 32.0
14.36000, 36.0
14.43000, 34.0
14.50000, 36.0
14.57000, 32.0
14.64000, 31.0
14.71000, 37.0
14.78000, 31.0
14.85000, 32.0
14.92000, 26.0
14.99000, 28.0
15.06000, 27.0
15.13000, 16.0
15.20000, 26.0
15.27000, 23.0
15.34000, 18.0
15.41000, 24.0
15.48000, 27.0
15.55000, 24.0
15.62000, 21.0
15.69000, 22.0
15.76000, 24.0
15.83000, 27.0
15.90000, 27.0
15.97000, 20.0
16.04000, 21.0
16.11000, 22.0
16.18000, 19.0
16.25000, 22.0
16.32000, 21.0
16.39000, 15.0
16.46000, 22.0
16.53000, 20.0
16.60000, 20.0
16.67000, 11.0
16.74000, 11.0
16.81000, 15.0
16.88000, 17.0
16.95000, 16.0
17.02000, 15.0
17.09000, 11.0
17.16000, 23.0
17.23000, 13.0
17.30000, 20.0
17.37000, 11.0
17.44000, 6.0
17.51000, 20.0
17.58000, 9.0
17.65000, 10.0
17.72000, 14.0
17.79000, 14.0
17.86000, 8.0
17.93000, 13.0
18.00000, 6.0
18.07000, 10.0
18.14000, 10.0
18.21000, 4.0
18.28000, 1.0
18.35000, 6.0
18.42000, 6.0
18.49000, 9.0
18.56000, 7.0
18.63000, 4.0
18.70000, 3.0
18.77000, 4.0
18.84000, 2.0
18.91000, 3.0
18.98000, 7.0
19.05000, 4.0
19.12000, 5.0
19.19000, 4.0
19.26000, 7.0
19.33000, 1.0
19.40000, 3.0
19.47000, 0.0
19.54000, 1.0
19.61000, 2.0
19.68000, 0.0
19.75000, 4.0
19.82000, 0.0
19.89000, 1.0
19.96000, 1.0
20.03000, 0.0
20.10000, 0.0
20.17000, 1.0
20.24000, 0.0
20.27000, 0.0
#ENDOFDATA   :

File: CL10_D 200 Spectrum 4.txt
#FORMAT      : EMSA/MAS Spectral Data File
#VERSION     : 1.0
#TITLE       : Spectrum 4
#DATE        : 20-DEC-2021
#TIME        : 13:40
#OWNER       :
#NPOINTS     : 2048.0
#NCOLUMNS    : 1.0
#XUNITS      : keV
#YUNITS      : counts
#DATATYPE    : XY
#XPERCHAN    : 0.01
#OFFSET      : -0.2
#SIGNALTYPE  : EDS
#CHOFFSET    : 20.0
#LIVETIME    : 40.0
#REALTIME    : 43.3191
#BEAMKV      : 20.0
#MAGCAM      : 500.0
#XTILTSTGE   : 0.0
#AZIMANGLE   : 0.0
#ELEVANGLE   : 35.0
#XPOSITION mm: -7.3128
#YPOSITION mm: 12.7039
#ZPOSITION mm: 10.0000
##OXINSTPT   : 4
##OXINSTSTROB: 43.60
##OXINSTNDET : 1
##OXINSTELEMS: 6,25,26,8,14,24,29,23,16
##OXINSTLABEL: 6, 0.277, C
##OXINSTLABEL: 25, 5.899, Mn
##OXINSTLABEL: 25, 6.490, Mn
##OXINSTLABEL: 25, 0.636, Mn
##OXINSTLABEL: 25, 0.556, Mn
##OXINSTLABEL: 26, 6.404, Fe
##OXINSTLABEL: 26, 7.058, Fe
##OXINSTLABEL: 26, 0.703, Fe
##OXINSTLABEL: 26, 0.615, Fe
##OXINSTLABEL: 8, 0.525, O
##OXINSTLABEL: 14, 1.740, Si
##OXINSTLABEL: 24, 5.415, Cr
##OXINSTLABEL: 24, 5.947, Cr
##OXINSTLABEL: 24, 0.573, Cr
##OXINSTLABEL: 24, 0.500, Cr
##OXINSTLABEL: 29, 8.048, Cu
##OXINSTLABEL: 29, 8.905, Cu
##OXINSTLABEL: 29, 0.930, Cu
##OXINSTLABEL: 29, 0.832, Cu
##OXINSTLABEL: 29, 0.811, Cu
##OXINSTLABEL: 23, 4.952, V
##OXINSTLABEL: 23, 5.427, V
##OXINSTLABEL: 23, 0.511, V
##OXINSTLABEL: 23, 0.446, V
##OXINSTLABEL: 16, 2.308, S
##OXINSTLABEL: 16, 2.464, S
#SPECTRUM    : Spectral Data Starts Here
-0.20000, 0.0
-0.13000, 0.0
-0.06000, 0.0
0.01000, 1387.0
0.08000, 334.0
0.15000, 189.0
0.22000, 433.0
0.29000, 2031.0
0.36000, 310.0
0.43000, 442.0
0.50000, 1253.0
0.57000, 1877.0
0.64000, 4547.0
0.71000, 13085.0
0.78000, 702.0
0.85000, 282.0
0.92000, 294.0
0.99000, 314.0
1.06000, 358.0
1.13000, 372.0
1.20000, 383.0
1.27000, 440.0
1.34000, 454.0
1.41000, 436.0
1.48000, 450.0
1.55000, 499.0
1.62000, 481.0
1.69000, 557.0
1.76000, 661.0
1.83000, 546.0
1.90000, 514.0
1.97000, 480.0
2.04000, 544.0
2.11000, 496.0
2.18000, 562.0
2.25000, 600.0
2.32000, 620.0
2.39000, 550.0
2.46000, 535.0
2.53000, 541.0
2.60000, 507.0
2.67000, 503.0
2.74000, 505.0
2.81000, 494.0
2.88000, 500.0
2.95000, 513.0
3.02000, 500.0
3.09000, 492.0
3.16000, 461.0
3.23000, 462.0
3.30000, 471.0
3.37000, 480.0
3.44000, 425.0
3.51000, 450.0
3.58000, 439.0
3.65000, 443.0
3.72000, 454.0
3.79000, 467.0
3.86000, 414.0
3.93000, 404.0
4.00000, 391.0
4.07000, 371.0
4.14000, 379.0
4.21000, 374.0
4.28000, 368.0
4.35000, 393.0
4.42000, 359.0
4.49000, 392.0
4.56000, 350.0
4.63000, 444.0
4.70000, 404.0
4.77000, 402.0
4.84000, 357.0
4.91000, 388.0
4.98000, 383.0
5.05000, 348.0
5.12000, 352.0
5.19000, 297.0
5.26000, 316.0
5.33000, 360.0
5.40000, 408.0
5.47000, 356.0
5.54000, 314.0
5.61000, 324.0
5.68000, 278.0
5.75000, 276.0
5.82000, 415.0
5.89000, 666.0
5.96000, 484.0
6.03000, 310.0
6.10000, 278.0
6.17000, 313.0
6.24000, 735.0
6.31000, 6562.0
6.38000, 21287.0
6.45000, 15347.0
6.52000, 2604.0
6.59000, 348.0
6.66000, 271.0
6.73000, 270.0
6.80000, 249.0
6.87000, 329.0
6.94000, 721.0
7.01000, 2404.0
7.08000, 2906.0
7.15000, 986.0
7.22000, 219.0
7.29000, 136.0
7.36000, 134.0
7.43000, 146.0
7.50000, 163.0
7.57000, 152.0
7.64000, 138.0
7.71000, 134.0
7.78000, 143.0
7.85000, 129.0
7.92000, 152.0
7.99000, 175.0
8.06000, 176.0
8.13000, 148.0
8.20000, 130.0
8.27000, 110.0
8.34000, 127.0
8.41000, 120.0
8.48000, 121.0
8.55000, 139.0
8.62000, 143.0
8.69000, 144.0
8.76000, 138.0
8.83000, 114.0
8.90000, 118.0
8.97000, 114.0
9.04000, 111.0
9.11000, 122.0
9.18000, 118.0
9.25000, 126.0
9.32000, 136.0
9.39000, 112.0
9.46000, 117.0
9.53000, 106.0
9.60000, 96.0
9.67000, 105.0
9.74000, 98.0
9.81000, 122.0
9.88000, 101.0
9.95000, 107.0
10.02000, 92.0
10.09000, 93.0
10.16000, 91.0
10.23000, 99.0
10.30000, 107.0
10.37000, 86.0
10.44000, 98.0
10.51000, 87.0
10.58000, 90.0
10.65000, 85.0
10.72000, 97.0
10.79000, 82.0
10.86000, 84.0
10.93000, 89.0
11.00000, 63.0
11.07000, 96.0
11.14000, 84.0
11.21000, 85.0
11.28000, 80.0
11.35000, 71.0
11.42000, 82.0
11.49000, 66.0
11.56000, 63.0
11.63000, 79.0
11.70000, 87.0
11.77000, 85.0
11.84000, 64.0
11.91000, 71.0
11.98000, 63.0
12.05000, 67.0
12.12000, 76.0
12.19000, 63.0
12.26000, 70.0
12.33000, 67.0
12.40000, 66.0
12.47000, 54.0
12.54000, 46.0
12.61000, 54.0
12.68000, 58.0
12.75000, 81.0
12.82000, 76.0
12.89000, 85.0
12.96000, 55.0
13.03000, 59.0
13.10000, 55.0
13.17000, 52.0
13.24000, 47.0
13.31000, 46.0
13.38000, 59.0
13.45000, 50.0
13.52000, 41.0
13.59000, 42.0
13.66000, 48.0
13.73000, 33.0
13.80000, 59.0
13.87000, 42.0
13.94000, 28.0
14.01000, 38.0
14.08000, 44.0
14.15000, 41.0
14.22000, 42.0
14.29000, 30.0
14.36000, 35.0
14.43000, 31.0
14.50000, 31.0
14.57000, 41.0
14.64000, 37.0
14.71000, 31.0
14.78000, 24.0
14.85000, 25.0
14.92000, 26.0
14.99000, 26.0
15.06000, 17.0
15.13000, 32.0
15.20000, 23.0
15.27000, 25.0
15.34000, 29.0
15.41000, 23.0
15.48000, 35.0
15.55000, 20.0
15.62000, 16.0
15.69000, 24.0
15.76000, 20.0
15.83000, 22.0
15.90000, 27.0
15.97000, 20.0
16.04000, 11.0
16.11000, 20.0
16.18000, 27.0
16.25000, 22.0
16.32000, 14.0
16.39000, 10.0
16.46000, 24.0
16.53000, 10.0
16.60000, 12.0
16.67000, 18.0
16.74000, 9.0
16.81000, 15.0
16.88000, 11.0
16.95000, 13.0
17.02000, 6.0
17.09000, 13.0
17.16000, 17.0
17.23000, 11.0
17.30000, 14.0
17.37000, 6.0
17.44000, 10.0
17.51000, 6.0
17.58000, 11.0
17.65000, 8.0
17.72000, 13.0
17.79000, 8.0
17.86000, 3.0
17.93000, 7.0
18.00000, 6.0
18.07000, 3.0
18.14000, 9.0
18.21000, 8.0
18.28000, 4.0
18.35000, 3.0
18.42000, 7.0
18.49000, 4.0
18.56000, 7.0
18.63000, 3.0
18.70000, 1.0
18.77000, 5.0
18.84000, 0.0
18.91000, 5.0
18.98000, 2.0
19.05000, 3.0
19.12000, 3.0
19.19000, 0.0
19.26000, 0.0
19.33000, 1.0
19.40000, 1.0
19.47000, 1.0
19.54000, 0.0
19.61000, 0.0
19.68000, 0.0
19.75000, 1.0
19.82000, 1.0
19.89000, 1.0
19.96000, 0.0
20.03000, 1.0
20.10000, 1.0
20.17000, 0.0
20.24000, 1.0
20.27000, 0.0
#ENDOFDATA   :

File: CL20-D 100 Spectrum 2.txt
#FORMAT      : EMSA/MAS Spectral Data File
#VERSION     : 1.0
#TITLE       : Spectrum 2
#DATE        : 20-DEC-2021
#TIME        : 12:55
#OWNER       :
#NPOINTS     : 2048.0
#NCOLUMNS    : 1.0
#XUNITS      : keV
#YUNITS      : counts
#DATATYPE    : XY
#XPERCHAN    : 0.01
#OFFSET      : -0.2
#SIGNALTYPE  : EDS
#CHOFFSET    : 20.0
#LIVETIME    : 40.0
#REALTIME    : 43.4763
#BEAMKV      : 20.0
#MAGCAM      : 500.0
#XTILTSTGE   : 0.0
#AZIMANGLE   : 0.0
#ELEVANGLE   : 35.0
#XPOSITION mm: 3.4877
#YPOSITION mm: 7.7600
#ZPOSITION mm: 6.0000
##OXINSTPT   : 4
##OXINSTSTROB: 43.53
##OXINSTNDET : 1
##OXINSTELEMS: 6,25,26,14,24,8,23,16
##OXINSTLABEL: 6, 0.277, C
##OXINSTLABEL: 25, 5.899, Mn
##OXINSTLABEL: 25, 6.490, Mn
##OXINSTLABEL: 25, 0.636, Mn
##OXINSTLABEL: 25, 0.556, Mn
##OXINSTLABEL: 26, 6.404, Fe
##OXINSTLABEL: 26, 7.058, Fe
##OXINSTLABEL: 26, 0.703, Fe
##OXINSTLABEL: 26, 0.615, Fe
##OXINSTLABEL: 14, 1.740, Si
##OXINSTLABEL: 24, 5.415, Cr
##OXINSTLABEL: 24, 5.947, Cr
##OXINSTLABEL: 24, 0.573, Cr
##OXINSTLABEL: 24, 0.500, Cr
##OXINSTLABEL: 8, 0.525, O
##OXINSTLABEL: 23, 4.952, V
##OXINSTLABEL: 23, 5.427, V
##OXINSTLABEL: 23, 0.511, V
##OXINSTLABEL: 23, 0.446, V
##OXINSTLABEL: 16, 2.308, S
##OXINSTLABEL: 16, 2.464, S
#SPECTRUM    : Spectral Data Starts Here
-0.20000, 0.0
-0.13000, 0.0
-0.06000, 3.0
0.01000, 1337.0
0.08000, 354.0
0.15000, 216.0
0.22000, 382.0
0.29000, 1376.0
0.36000, 309.0
0.43000, 510.0
0.50000, 1204.0
0.57000, 1979.0
0.64000, 5159.0
0.71000, 14605.0
0.78000, 734.0
0.85000, 284.0
0.92000, 322.0
0.99000, 350.0
1.06000, 397.0
1.13000, 379.0
1.20000, 465.0
1.27000, 433.0
1.34000, 484.0
1.41000, 516.0
1.48000, 518.0
1.55000, 492.0
1.62000, 522.0
1.69000, 612.0
1.76000, 688.0
1.83000, 561.0
1.90000, 497.0
1.97000, 544.0
2.04000, 505.0
2.11000, 517.0
2.18000, 510.0
2.25000, 593.0
2.32000, 662.0
2.39000, 583.0
2.46000, 557.0
2.53000, 511.0
2.60000, 549.0
2.67000, 554.0
2.74000, 498.0
2.81000, 521.0
2.88000, 521.0
2.95000, 479.0
3.02000, 482.0
3.09000, 490.0
3.16000, 461.0
3.23000, 505.0
3.30000, 469.0
3.37000, 465.0
3.44000, 456.0
3.51000, 461.0
3.58000, 465.0
3.65000, 463.0
3.72000, 433.0
3.79000, 418.0
3.86000, 388.0
3.93000, 370.0
4.00000, 413.0
4.07000, 378.0
4.14000, 376.0
4.21000, 385.0
4.28000, 389.0
4.35000, 382.0
4.42000, 380.0
4.49000, 340.0
4.56000, 393.0
4.63000, 410.0
4.70000, 399.0
4.77000, 354.0
4.84000, 320.0
4.91000, 377.0
4.98000, 359.0
5.05000, 336.0
5.12000, 323.0
5.19000, 333.0
5.26000, 298.0
5.33000, 331.0
5.40000, 379.0
5.47000, 334.0
5.54000, 293.0
5.61000, 305.0
5.68000, 279.0
5.75000, 278.0
5.82000, 404.0
5.89000, 656.0
5.96000, 485.0
6.03000, 280.0
6.10000, 245.0
6.17000, 314.0
6.24000, 704.0
6.31000, 6516.0
6.38000, 21419.0
6.45000, 15209.0
6.52000, 2674.0
6.59000, 371.0
6.66000, 259.0
6.73000, 257.0
6.80000, 263.0
6.87000, 309.0
6.94000, 739.0
7.01000, 2402.0
7.08000, 2824.0
7.15000, 1030.0
7.22000, 212.0
7.29000, 139.0
7.36000, 138.0
7.43000, 157.0
7.50000, 155.0
7.57000, 141.0
7.64000, 119.0
7.71000, 142.0
7.78000, 135.0
7.85000, 135.0
7.92000, 145.0
7.99000, 149.0
8.06000, 157.0
8.13000, 144.0
8.20000, 133.0
8.27000, 127.0
8.34000, 145.0
8.41000, 112.0
8.48000, 144.0
8.55000, 102.0
8.62000, 134.0
8.69000, 107.0
8.76000, 126.0
8.83000, 132.0
8.90000, 123.0
8.97000, 121.0
9.04000, 122.0
9.11000, 131.0
9.18000, 110.0
9.25000, 93.0
9.32000, 128.0
9.39000, 111.0
9.46000, 85.0
9.53000, 104.0
9.60000, 98.0
9.67000, 103.0
9.74000, 114.0
9.81000, 92.0
9.88000, 102.0
9.95000, 95.0
10.02000, 79.0
10.09000, 106.0
10.16000, 90.0
10.23000, 106.0
10.30000, 80.0
10.37000, 92.0
10.44000, 96.0
10.51000, 74.0
10.58000, 89.0
10.65000, 87.0
10.72000, 74.0
10.79000, 92.0
10.86000, 77.0
10.93000, 85.0
11.00000, 85.0
11.07000, 71.0
11.14000, 65.0
11.21000, 95.0
11.28000, 79.0
11.35000, 88.0
11.42000, 83.0
11.49000, 68.0
11.56000, 66.0
11.63000, 70.0
11.70000, 65.0
11.77000, 61.0
11.84000, 59.0
11.91000, 60.0
11.98000, 68.0
12.05000, 69.0
12.12000, 61.0
12.19000, 71.0
12.26000, 55.0
12.33000, 56.0
12.40000, 66.0
12.47000, 65.0
12.54000, 69.0
12.61000, 50.0
12.68000, 58.0
12.75000, 73.0
12.82000, 95.0
12.89000, 78.0
12.96000, 55.0
13.03000, 57.0
13.10000, 44.0
13.17000, 47.0
13.24000, 40.0
13.31000, 52.0
13.38000, 53.0
13.45000, 63.0
13.52000, 62.0
13.59000, 49.0
13.66000, 46.0
13.73000, 44.0
13.80000, 48.0
13.87000, 33.0
13.94000, 48.0
14.01000, 42.0
14.08000, 39.0
14.15000, 37.0
14.22000, 34.0
14.29000, 38.0
14.36000, 30.0
14.43000, 24.0
14.50000, 27.0
14.57000, 30.0
14.64000, 32.0
14.71000, 19.0
14.78000, 30.0
14.85000, 27.0
14.92000, 29.0
14.99000, 42.0
15.06000, 21.0
15.13000, 28.0
15.20000, 24.0
15.27000, 37.0
15.34000, 21.0
15.41000, 19.0
15.48000, 23.0
15.55000, 28.0
15.62000, 28.0
15.69000, 22.0
15.76000, 22.0
15.83000, 19.0
15.90000, 13.0
15.97000, 15.0
16.04000, 18.0
16.11000, 17.0
16.18000, 18.0
16.25000, 14.0
16.32000, 16.0
16.39000, 11.0
16.46000, 16.0
16.53000, 16.0
16.60000, 11.0
16.67000, 15.0
16.74000, 11.0
16.81000, 10.0
16.88000, 12.0
16.95000, 13.0
17.02000, 12.0
17.09000, 14.0
17.16000, 9.0
17.23000, 10.0
17.30000, 9.0
17.37000, 11.0
17.44000, 11.0
17.51000, 6.0
17.58000, 10.0
17.65000, 12.0
17.72000, 8.0
17.79000, 5.0
17.86000, 6.0
17.93000, 4.0
18.00000, 9.0
18.07000, 5.0
18.14000, 2.0
18.21000, 3.0
18.28000, 5.0
18.35000, 7.0
18.42000, 5.0
18.49000, 4.0
18.56000, 4.0
18.63000, 8.0
18.70000, 4.0
18.77000, 5.0
18.84000, 3.0
18.91000, 6.0
18.98000, 5.0
19.05000, 3.0
19.12000, 3.0
19.19000, 1.0
19.26000, 1.0
19.33000, 4.0
19.40000, 3.0
19.47000, 1.0
19.54000, 5.0
19.61000, 0.0
19.68000, 2.0
19.75000, 0.0
19.82000, 1.0
19.89000, 1.0
19.96000, 0.0
20.03000, 0.0
20.10000, 0.0
20.17000, 0.0
20.24000, 0.0
20.27000, 0.0
#ENDOFDATA   :

File: CL20_B 000 Spectrum 1.txt
#FORMAT      : EMSA/MAS Spectral Data File
#VERSION     : 1.0
#TITLE       : Spectrum 1
#DATE        : 20-DEC-2021
#TIME        : 13:48
#OWNER       :
#NPOINTS     : 2048.0
#NCOLUMNS    : 1.0
#XUNITS      : keV
#YUNITS      : counts
#DATATYPE    : XY
#XPERCHAN    : 0.01
#OFFSET      : -0.2
#SIGNALTYPE  : EDS
#CHOFFSET    : 20.0
#LIVETIME    : 40.0
#REALTIME    : 42.8623
#BEAMKV      : 20.0
#MAGCAM      : 500.0
#XTILTSTGE   : 0.0
#AZIMANGLE   : 0.0
#ELEVANGLE   : 35.0
#XPOSITION mm: -0.2433
#YPOSITION mm: -11.5485
#ZPOSITION mm: 10.0000
##OXINSTPT   : 4
##OXINSTSTROB: 43.58
##OXINSTNDET : 1
##OXINSTELEMS: 6,26,25,14,24,23,29,16
##OXINSTLABEL: 6, 0.277, C
##OXINSTLABEL: 26, 6.404, Fe
##OXINSTLABEL: 26, 7.058, Fe
##OXINSTLABEL: 26, 0.703, Fe
##OXINSTLABEL: 26, 0.615, Fe
##OXINSTLABEL: 25, 5.899, Mn
##OXINSTLABEL: 25, 6.490, Mn
##OXINSTLABEL: 25, 0.636, Mn
##OXINSTLABEL: 25, 0.556, Mn
##OXINSTLABEL: 14, 1.740, Si
##OXINSTLABEL: 24, 5.415, Cr
##OXINSTLABEL: 24, 5.947, Cr
##OXINSTLABEL: 24, 0.573, Cr
##OXINSTLABEL: 24, 0.500, Cr
##OXINSTLABEL: 23, 4.952, V
##OXINSTLABEL: 23, 5.427, V
##OXINSTLABEL: 23, 0.511, V
##OXINSTLABEL: 23, 0.446, V
##OXINSTLABEL: 29, 8.048, Cu
##OXINSTLABEL: 29, 8.905, Cu
##OXINSTLABEL: 29, 0.930, Cu
##OXINSTLABEL: 29, 0.832, Cu
##OXINSTLABEL: 29, 0.811, Cu
##OXINSTLABEL: 16, 2.308, S
##OXINSTLABEL: 16, 2.464, S
#SPECTRUM    : Spectral Data Starts Here
-0.20000, 0.0
-0.13000, 0.0
-0.06000, 1.0
0.01000, 1422.0
0.08000, 298.0
0.15000, 124.0
0.22000, 243.0
0.29000, 850.0
0.36000, 187.0
0.43000, 296.0
0.50000, 714.0
0.57000, 1380.0
0.64000, 3486.0
0.71000, 9858.0
0.78000, 504.0
0.85000, 199.0
0.92000, 232.0
0.99000, 215.0
1.06000, 240.0
1.13000, 241.0
1.20000, 260.0
1.27000, 307.0
1.34000, 302.0
1.41000, 327.0
1.48000, 347.0
1.55000, 318.0
1.62000, 355.0
1.69000, 398.0
1.76000, 486.0
1.83000, 363.0
1.90000, 367.0
1.97000, 389.0
2.04000, 372.0
2.11000, 372.0
2.18000, 320.0
2.25000, 414.0
2.32000, 440.0
2.39000, 394.0
2.46000, 402.0
2.53000, 377.0
2.60000, 401.0
2.67000, 391.0
2.74000, 354.0
2.81000, 393.0
2.88000, 361.0
2.95000, 397.0
3.02000, 364.0
3.09000, 353.0
3.16000, 372.0
3.23000, 372.0
3.30000, 382.0
3.37000, 348.0
3.44000, 381.0
3.51000, 341.0
3.58000, 344.0
3.65000, 374.0
3.72000, 366.0
3.79000, 338.0
3.86000, 316.0
3.93000, 301.0
4.00000, 321.0
4.07000, 335.0
4.14000, 313.0
4.21000, 282.0
4.28000, 311.0
4.35000, 327.0
4.42000, 284.0
4.49000, 296.0
4.56000, 331.0
4.63000, 365.0
4.70000, 309.0
4.77000, 264.0
4.84000, 288.0
4.91000, 322.0
4.98000, 302.0
5.05000, 264.0
5.12000, 260.0
5.19000, 273.0
5.26000, 281.0
5.33000, 265.0
5.40000, 346.0
5.47000, 305.0
5.54000, 235.0
5.61000, 240.0
5.68000, 241.0
5.75000, 249.0
5.82000, 340.0
5.89000, 574.0
5.96000, 407.0
6.03000, 253.0
6.10000, 232.0
6.17000, 270.0
6.24000, 608.0
6.31000, 5542.0
6.38000, 18242.0
6.45000, 13052.0
6.52000, 2289.0
6.59000, 298.0
6.66000, 241.0
6.73000, 211.0
6.80000, 210.0
6.87000, 268.0
6.94000, 639.0
7.01000, 2158.0
7.08000, 2509.0
7.15000, 798.0
7.22000, 161.0
7.29000, 101.0
7.36000, 115.0
7.43000, 123.0
7.50000, 116.0
7.57000, 93.0
7.64000, 103.0
7.71000, 108.0
7.78000, 97.0
7.85000, 98.0
7.92000, 104.0
7.99000, 110.0
8.06000, 130.0
8.13000, 108.0
8.20000, 107.0
8.27000, 103.0
8.34000, 111.0
8.41000, 109.0
8.48000, 109.0
8.55000, 109.0
8.62000, 92.0
8.69000, 96.0
8.76000, 85.0
8.83000, 96.0
8.90000, 101.0
8.97000, 86.0
9.04000, 94.0
9.11000, 86.0
9.18000, 87.0
9.25000, 96.0
9.32000, 90.0
9.39000, 97.0
9.46000, 101.0
9.53000, 93.0
9.60000, 76.0
9.67000, 76.0
9.74000, 78.0
9.81000, 75.0
9.88000, 74.0
9.95000, 68.0
10.02000, 81.0
10.09000, 80.0
10.16000, 93.0
10.23000, 71.0
10.30000, 89.0
10.37000, 64.0
10.44000, 68.0
10.51000, 74.0
10.58000, 74.0
10.65000, 84.0
10.72000, 65.0
10.79000, 66.0
10.86000, 64.0
10.93000, 83.0
11.00000, 69.0
11.07000, 56.0
11.14000, 65.0
11.21000, 54.0
11.28000, 59.0
11.35000, 66.0
11.42000, 63.0
11.49000, 51.0
11.56000, 47.0
11.63000, 52.0
11.70000, 55.0
11.77000, 42.0
11.84000, 51.0
11.91000, 70.0
11.98000, 47.0
12.05000, 69.0
12.12000, 47.0
12.19000, 52.0
12.26000, 46.0
12.33000, 52.0
12.40000, 53.0
12.47000, 43.0
12.54000, 50.0
12.61000, 64.0
12.68000, 47.0
12.75000, 74.0
12.82000, 84.0
12.89000, 62.0
12.96000, 46.0
13.03000, 40.0
13.10000, 38.0
13.17000, 41.0
13.24000, 40.0
13.31000, 33.0
13.38000, 49.0
13.45000, 48.0
13.52000, 50.0
13.59000, 39.0
13.66000, 36.0
13.73000, 35.0
13.80000, 32.0
13.87000, 23.0
13.94000, 25.0
14.01000, 34.0
14.08000, 36.0
14.15000, 30.0
14.22000, 32.0
14.29000, 35.0
14.36000, 23.0
14.43000, 29.0
14.50000, 37.0
14.57000, 13.0
14.64000, 31.0
14.71000, 24.0
14.78000, 29.0
14.85000, 29.0
14.92000, 28.0
14.99000, 18.0
15.06000, 23.0
15.13000, 20.0
15.20000, 20.0
15.27000, 16.0
15.34000, 24.0
15.41000, 23.0
15.48000, 17.0
15.55000, 27.0
15.62000, 20.0
15.69000, 20.0
15.76000, 17.0
15.83000, 16.0
15.90000, 11.0
15.97000, 15.0
16.04000, 16.0
16.11000, 15.0
16.18000, 23.0
16.25000, 26.0
16.32000, 17.0
16.39000, 11.0
16.46000, 11.0
16.53000, 11.0
16.60000, 11.0
16.67000, 8.0
16.74000, 13.0
16.81000, 24.0
16.88000, 9.0
16.95000, 6.0
17.02000, 8.0
17.09000, 6.0
17.16000, 12.0
17.23000, 17.0
17.30000, 9.0
17.37000, 17.0
17.44000, 5.0
17.51000, 9.0
17.58000, 9.0
17.65000, 5.0
17.72000, 7.0
17.79000, 6.0
17.86000, 7.0
17.93000, 5.0
18.00000, 11.0
18.07000, 7.0
18.14000, 9.0
18.21000, 4.0
18.28000, 7.0
18.35000, 8.0
18.42000, 1.0
18.49000, 4.0
18.56000, 6.0
18.63000, 2.0
18.70000, 5.0
18.77000, 5.0
18.84000, 2.0
18.91000, 2.0
18.98000, 6.0
19.05000, 8.0
19.12000, 6.0
19.19000, 1.0
19.26000, 0.0
19.33000, 5.0
19.40000, 4.0
19.47000, 2.0
19.54000, 2.0
19.61000, 1.0
19.68000, 1.0
19.75000, 0.0
19.82000, 1.0
19.89000, 2.0
19.96000, 0.0
20.03000, 0.0
20.10000, 0.0
20.17000, 0.0
20.24000, 0.0
20.27000, 0.0
#ENDOFDATA   :