Folder: ExperimentalProgram/SEM (part 2)

File: CL20_B 100 Spectrum 1.txt
#FORMAT      : EMSA/MAS Spectral Data File
#VERSION     : 1.0
#TITLE       : Spectrum 2
#DATE        : 20-DEC-2021
#TIME        : 13:56
#OWNER       :
#NPOINTS     : 2048.0
#NCOLUMNS    : 1.0
#XUNITS      : keV
#YUNITS      : counts
#DATATYPE    : XY
#XPERCHAN    : 0.01
#OFFSET      : -0.2
#SIGNALTYPE  : EDS
#CHOFFSET    : 20.0
#LIVETIME    : 40.0
#REALTIME    : 43.514
#BEAMKV      : 20.0
#MAGCAM      : 500.0
#XTILTSTGE   : 0.0
#AZIMANGLE   : 0.0
#ELEVANGLE   : 35.0
#XPOSITION mm: -3.6152
#YPOSITION mm: -8.2016
#ZPOSITION mm: 10.0000
##OXINSTPT   : 4
##OXINSTSTROB: 43.59
##OXINSTNDET : 1
##OXINSTELEMS: 6,25,26,14,24,23,16,29
##OXINSTLABEL: 6, 0.277, C
##OXINSTLABEL: 25, 5.899, Mn
##OXINSTLABEL: 25, 6.490, Mn
##OXINSTLABEL: 25, 0.636, Mn
##OXINSTLABEL: 25, 0.556, Mn
##OXINSTLABEL: 26, 6.404, Fe
##OXINSTLABEL: 26, 7.058, Fe
##OXINSTLABEL: 26, 0.703, Fe
##OXINSTLABEL: 26, 0.615, Fe
##OXINSTLABEL: 14, 1.740, Si
##OXINSTLABEL: 24, 5.415, Cr
##OXINSTLABEL: 24, 5.947, Cr
##OXINSTLABEL: 24, 0.573, Cr
##OXINSTLABEL: 24, 0.500, Cr
##OXINSTLABEL: 23, 4.952, V
##OXINSTLABEL: 23, 5.427, V
##OXINSTLABEL: 23, 0.511, V
##OXINSTLABEL: 23, 0.446, V
##OXINSTLABEL: 16, 2.308, S
##OXINSTLABEL: 16, 2.464, S
##OXINSTLABEL: 29, 8.048, Cu
##OXINSTLABEL: 29, 8.905, Cu
##OXINSTLABEL: 29, 0.930, Cu
##OXINSTLABEL: 29, 0.832, Cu
##OXINSTLABEL: 29, 0.811, Cu
#SPECTRUM    : Spectral Data Starts Here
-0.20000, 0.0
-0.13000, 0.0
-0.06000, 2.0
0.01000, 1312.0
0.08000, 335.0
0.15000, 160.0
0.22000, 336.0
0.29000, 921.0
0.36000, 269.0
0.43000, 423.0
0.50000, 967.0
0.57000, 1906.0
0.64000, 5055.0
0.71000, 14041.0
0.78000, 706.0
0.85000, 260.0
0.92000, 293.0
0.99000, 311.0
1.06000, 324.0
1.13000, 376.0
1.20000, 382.0
1.27000, 414.0
1.34000, 452.0
1.41000, 468.0
1.48000, 484.0
1.55000, 447.0
1.62000, 439.0
1.69000, 543.0
1.76000, 673.0
1.83000, 490.0
1.90000, 494.0
1.97000, 525.0
2.04000, 523.0
2.11000, 506.0
2.18000, 517.0
2.25000, 555.0
2.32000, 623.0
2.39000, 559.0
2.46000, 515.0
2.53000, 527.0
2.60000, 521.0
2.67000, 520.0
2.74000, 481.0
2.81000, 483.0
2.88000, 510.0
2.95000, 514.0
3.02000, 501.0
3.09000, 469.0
3.16000, 481.0
3.23000, 480.0
3.30000, 462.0
3.37000, 487.0
3.44000, 465.0
3.51000, 427.0
3.58000, 436.0
3.65000, 435.0
3.72000, 460.0
3.79000, 423.0
3.86000, 437.0
3.93000, 420.0
4.00000, 446.0
4.07000, 448.0
4.14000, 385.0
4.21000, 389.0
4.28000, 365.0
4.35000, 396.0
4.42000, 367.0
4.49000, 401.0
4.56000, 393.0
4.63000, 432.0
4.70000, 417.0
4.77000, 341.0
4.84000, 356.0
4.91000, 367.0
4.98000, 413.0
5.05000, 345.0
5.12000, 334.0
5.19000, 349.0
5.26000, 305.0
5.33000, 408.0
5.40000, 413.0
5.47000, 390.0
5.54000, 337.0
5.61000, 294.0
5.68000, 304.0
5.75000, 316.0
5.82000, 458.0
5.89000, 705.0
5.96000, 539.0
6.03000, 336.0
6.10000, 311.0
6.17000, 333.0
6.24000, 780.0
6.31000, 7033.0
6.38000, 22630.0
6.45000, 16126.0
6.52000, 2770.0
6.59000, 378.0
6.66000, 263.0
6.73000, 253.0
6.80000, 266.0
6.87000, 330.0
6.94000, 798.0
7.01000, 2555.0
7.08000, 2978.0
7.15000, 999.0
7.22000, 220.0
7.29000, 153.0
7.36000, 168.0
7.43000, 173.0
7.50000, 157.0
7.57000, 177.0
7.64000, 141.0
7.71000, 143.0
7.78000, 144.0
7.85000, 141.0
7.92000, 160.0
7.99000, 129.0
8.06000, 148.0
8.13000, 154.0
8.20000, 118.0
8.27000, 144.0
8.34000, 123.0
8.41000, 137.0
8.48000, 121.0
8.55000, 122.0
8.62000, 113.0
8.69000, 112.0
8.76000, 112.0
8.83000, 121.0
8.90000, 121.0
8.97000, 123.0
9.04000, 106.0
9.11000, 106.0
9.18000, 139.0
9.25000, 108.0
9.32000, 117.0
9.39000, 122.0
9.46000, 105.0
9.53000, 96.0
9.60000, 103.0
9.67000, 124.0
9.74000, 92.0
9.81000, 97.0
9.88000, 102.0
9.95000, 112.0
10.02000, 102.0
10.09000, 107.0
10.16000, 109.0
10.23000, 107.0
10.30000, 99.0
10.37000, 86.0
10.44000, 81.0
10.51000, 97.0
10.58000, 89.0
10.65000, 97.0
10.72000, 84.0
10.79000, 74.0
10.86000, 94.0
10.93000, 92.0
11.00000, 75.0
11.07000, 100.0
11.14000, 94.0
11.21000, 74.0
11.28000, 59.0
11.35000, 68.0
11.42000, 75.0
11.49000, 68.0
11.56000, 69.0
11.63000, 78.0
11.70000, 75.0
11.77000, 68.0
11.84000, 54.0
11.91000, 78.0
11.98000, 56.0
12.05000, 72.0
12.12000, 70.0
12.19000, 62.0
12.26000, 48.0
12.33000, 64.0
12.40000, 58.0
12.47000, 65.0
12.54000, 56.0
12.61000, 51.0
12.68000, 56.0
12.75000, 83.0
12.82000, 98.0
12.89000, 79.0
12.96000, 51.0
13.03000, 37.0
13.10000, 49.0
13.17000, 52.0
13.24000, 50.0
13.31000, 46.0
13.38000, 58.0
13.45000, 67.0
13.52000, 40.0
13.59000, 38.0
13.66000, 43.0
13.73000, 41.0
13.80000, 49.0
13.87000, 34.0
13.94000, 34.0
14.01000, 45.0
14.08000, 33.0
14.15000, 34.0
14.22000, 37.0
14.29000, 33.0
14.36000, 38.0
14.43000, 34.0
14.50000, 28.0
14.57000, 30.0
14.64000, 27.0
14.71000, 34.0
14.78000, 30.0
14.85000, 26.0
14.92000, 28.0
14.99000, 19.0
15.06000, 23.0
15.13000, 25.0
15.20000, 25.0
15.27000, 29.0
15.34000, 26.0
15.41000, 30.0
15.48000, 17.0
15.55000, 16.0
15.62000, 26.0
15.69000, 24.0
15.76000, 14.0
15.83000, 24.0
15.90000, 26.0
15.97000, 18.0
16.04000, 19.0
16.11000, 17.0
16.18000, 12.0
16.25000, 16.0
16.32000, 14.0
16.39000, 25.0
16.46000, 10.0
16.53000, 10.0
16.60000, 14.0
16.67000, 20.0
16.74000, 18.0
16.81000, 20.0
16.88000, 13.0
16.95000, 9.0
17.02000, 21.0
17.09000, 15.0
17.16000, 14.0
17.23000, 6.0
17.30000, 7.0
17.37000, 7.0
17.44000, 6.0
17.51000, 12.0
17.58000, 10.0
17.65000, 12.0
17.72000, 9.0
17.79000, 8.0
17.86000, 8.0
17.93000, 11.0
18.00000, 11.0
18.07000, 2.0
18.14000, 4.0
18.21000, 8.0
18.28000, 10.0
18.35000, 5.0
18.42000, 5.0
18.49000, 8.0
18.56000, 3.0
18.63000, 4.0
18.70000, 3.0
18.77000, 3.0
18.84000, 5.0
18.91000, 3.0
18.98000, 7.0
19.05000, 3.0
19.12000, 3.0
19.19000, 3.0
19.26000, 1.0
19.33000, 2.0
19.40000, 2.0
19.47000, 1.0
19.54000, 3.0
19.61000, 1.0
19.68000, 2.0
19.75000, 1.0
19.82000, 1.0
19.89000, 1.0
19.96000, 1.0
20.03000, 1.0
20.10000, 0.0
20.17000, 0.0
20.24000, 0.0
20.27000, 0.0
#ENDOFDATA   :