Folder: ExperimentalProgram/SEM/010422

Note: README.md
# ExperimentalProgram
Experimental data, photos and results

File: CL15_B Spectrum 3.txt
#FORMAT      : EMSA/MAS Spectral Data File
#VERSION     : 1.0
#TITLE       : Spectrum 3
#DATE        : 04-JAN-2022
#TIME        : 13:36
#OWNER       :
#NPOINTS     : 2048.0
#NCOLUMNS    : 1.0
#XUNITS      : keV
#YUNITS      : counts
#DATATYPE    : XY
#XPERCHAN    : 0.01
#OFFSET      : -0.2
#SIGNALTYPE  : EDS
#CHOFFSET    : 20.0
#LIVETIME    : 39.9722
#REALTIME    : 41.7641
#BEAMKV      : 20.0
#MAGCAM      : 500.0
#XTILTSTGE   : 0.0
#AZIMANGLE   : 0.0
#ELEVANGLE   : 35.0
#XPOSITION mm: -11.0050
#YPOSITION mm: 4.9090
#ZPOSITION mm: 10.0000
##OXINSTPT   : 4
##OXINSTSTROB: 43.42
##OXINSTNDET : 1
##OXINSTELEMS: 6,26,25,8,24,14,16,23
##OXINSTLABEL: 6, 0.277, C
##OXINSTLABEL: 26, 6.404, Fe
##OXINSTLABEL: 26, 7.058, Fe
##OXINSTLABEL: 26, 0.703, Fe
##OXINSTLABEL: 26, 0.615, Fe
##OXINSTLABEL: 25, 5.899, Mn
##OXINSTLABEL: 25, 6.490, Mn
##OXINSTLABEL: 25, 0.636, Mn
##OXINSTLABEL: 25, 0.556, Mn
##OXINSTLABEL: 8, 0.525, O
##OXINSTLABEL: 24, 5.415, Cr
##OXINSTLABEL: 24, 5.947, Cr
##OXINSTLABEL: 24, 0.573, Cr
##OXINSTLABEL: 24, 0.500, Cr
##OXINSTLABEL: 14, 1.740, Si
##OXINSTLABEL: 16, 2.308, S
##OXINSTLABEL: 16, 2.464, S
##OXINSTLABEL: 23, 4.952, V
##OXINSTLABEL: 23, 5.427, V
##OXINSTLABEL: 23, 0.511, V
##OXINSTLABEL: 23, 0.446, V
#SPECTRUM    : Spectral Data Starts Here
-0.20000, 0.0
-0.13000, 0.0
-0.06000, 0.0
0.01000, 1419.0
0.08000, 259.0
0.15000, 99.0
0.22000, 197.0
0.29000, 655.0
0.36000, 158.0
0.43000, 237.0
0.50000, 662.0
0.57000, 993.0
0.64000, 2497.0
0.71000, 6898.0
0.78000, 344.0
0.85000, 161.0
0.92000, 147.0
0.99000, 152.0
1.06000, 165.0
1.13000, 167.0
1.20000, 190.0
1.27000, 203.0
1.34000, 220.0
1.41000, 230.0
1.48000, 251.0
1.55000, 238.0
1.62000, 228.0
1.69000, 290.0
1.76000, 335.0
1.83000, 276.0
1.90000, 267.0
1.97000, 265.0
2.04000, 247.0
2.11000, 247.0
2.18000, 266.0
2.25000, 278.0
2.32000, 364.0
2.39000, 300.0
2.46000, 274.0
2.53000, 296.0
2.60000, 266.0
2.67000, 275.0
2.74000, 274.0
2.81000, 251.0
2.88000, 253.0
2.95000, 271.0
3.02000, 256.0
3.09000, 263.0
3.16000, 264.0
3.23000, 263.0
3.30000, 250.0
3.37000, 236.0
3.44000, 250.0
3.51000, 225.0
3.58000, 230.0
3.65000, 240.0
3.72000, 234.0
3.79000, 227.0
3.86000, 192.0
3.93000, 191.0
4.00000, 230.0
4.07000, 230.0
4.14000, 221.0
4.21000, 212.0
4.28000, 183.0
4.35000, 205.0
4.42000, 190.0
4.49000, 206.0
4.56000, 185.0
4.63000, 250.0
4.70000, 213.0
4.77000, 189.0
4.84000, 192.0
4.91000, 204.0
4.98000, 202.0
5.05000, 175.0
5.12000, 183.0
5.19000, 160.0
5.26000, 178.0
5.33000, 176.0
5.40000, 215.0
5.47000, 173.0
5.54000, 169.0
5.61000, 166.0
5.68000, 166.0
5.75000, 182.0
5.82000, 241.0
5.89000, 379.0
5.96000, 274.0
6.03000, 179.0
6.10000, 169.0
6.17000, 173.0
6.24000, 383.0
6.31000, 3662.0
6.38000, 12223.0
6.45000, 8787.0
6.52000, 1422.0
6.59000, 192.0
6.66000, 150.0
6.73000, 148.0
6.80000, 138.0
6.87000, 180.0
6.94000, 438.0
7.01000, 1402.0
7.08000, 1610.0
7.15000, 549.0
7.22000, 104.0
7.29000, 68.0
7.36000, 79.0
7.43000, 72.0
7.50000, 103.0
7.57000, 72.0
7.64000, 80.0
7.71000, 70.0
7.78000, 68.0
7.85000, 82.0
7.92000, 74.0
7.99000, 84.0
8.06000, 75.0
8.13000, 76.0
8.20000, 71.0
8.27000, 60.0
8.34000, 62.0
8.41000, 73.0
8.48000, 78.0
8.55000, 67.0
8.62000, 70.0
8.69000, 63.0
8.76000, 68.0
8.83000, 67.0
8.90000, 72.0
8.97000, 68.0
9.04000, 63.0
9.11000, 71.0
9.18000, 49.0
9.25000, 75.0
9.32000, 57.0
9.39000, 59.0
9.46000, 56.0
9.53000, 48.0
9.60000, 61.0
9.67000, 73.0
9.74000, 52.0
9.81000, 57.0
9.88000, 64.0
9.95000, 54.0
10.02000, 62.0
10.09000, 48.0
10.16000, 46.0
10.23000, 55.0
10.30000, 51.0
10.37000, 56.0
10.44000, 42.0
10.51000, 50.0
10.58000, 47.0
10.65000, 54.0
10.72000, 50.0
10.79000, 50.0
10.86000, 44.0
10.93000, 49.0
11.00000, 38.0
11.07000, 38.0
11.14000, 44.0
11.21000, 40.0
11.28000, 37.0
11.35000, 41.0
11.42000, 37.0
11.49000, 40.0
11.56000, 37.0
11.63000, 32.0
11.70000, 38.0
11.77000, 31.0
11.84000, 34.0
11.91000, 38.0
11.98000, 38.0
12.05000, 32.0
12.12000, 36.0
12.19000, 27.0
12.26000, 40.0
12.33000, 42.0
12.40000, 32.0
12.47000, 29.0
12.54000, 39.0
12.61000, 40.0
12.68000, 36.0
12.75000, 39.0
12.82000, 45.0
12.89000, 34.0
12.96000, 29.0
13.03000, 24.0
13.10000, 24.0
13.17000, 33.0
13.24000, 16.0
13.31000, 26.0
13.38000, 25.0
13.45000, 31.0
13.52000, 30.0
13.59000, 23.0
13.66000, 28.0
13.73000, 32.0
13.80000, 29.0
13.87000, 21.0
13.94000, 30.0
14.01000, 17.0
14.08000, 27.0
14.15000, 22.0
14.22000, 26.0
14.29000, 21.0
14.36000, 23.0
14.43000, 17.0
14.50000, 23.0
14.57000, 16.0
14.64000, 21.0
14.71000, 16.0
14.78000, 15.0
14.85000, 14.0
14.92000, 16.0
14.99000, 15.0
15.06000, 12.0
15.13000, 11.0
15.20000, 16.0
15.27000, 9.0
15.34000, 11.0
15.41000, 12.0
15.48000, 10.0
15.55000, 20.0
15.62000, 9.0
15.69000, 7.0
15.76000, 11.0
15.83000, 9.0
15.90000, 12.0
15.97000, 10.0
16.04000, 9.0
16.11000, 12.0
16.18000, 8.0
16.25000, 9.0
16.32000, 8.0
16.39000, 9.0
16.46000, 5.0
16.53000, 6.0
16.60000, 6.0
16.67000, 12.0
16.74000, 6.0
16.81000, 5.0
16.88000, 4.0
16.95000, 9.0
17.02000, 7.0
17.09000, 3.0
17.16000, 6.0
17.23000, 10.0
17.30000, 8.0
17.37000, 5.0
17.44000, 3.0
17.51000, 8.0
17.58000, 8.0
17.65000, 4.0
17.72000, 9.0
17.79000, 4.0
17.86000, 3.0
17.93000, 1.0
18.00000, 8.0
18.07000, 6.0
18.14000, 2.0
18.21000, 3.0
18.28000, 5.0
18.35000, 2.0
18.42000, 7.0
18.49000, 2.0
18.56000, 2.0
18.63000, 1.0
18.70000, 4.0
18.77000, 0.0
18.84000, 4.0
18.91000, 3.0
18.98000, 4.0
19.05000, 1.0
19.12000, 3.0
19.19000, 0.0
19.26000, 0.0
19.33000, 3.0
19.40000, 0.0
19.47000, 0.0
19.54000, 1.0
19.61000, 2.0
19.68000, 0.0
19.75000, 0.0
19.82000, 1.0
19.89000, 1.0
19.96000, 0.0
20.03000, 0.0
20.10000, 0.0
20.17000, 0.0
20.24000, 0.0
20.27000, 0.0
#ENDOFDATA   :