Folder: ExperimentalProgram/SEM/010422/CL15_B/reports

Note: README.md
# ExperimentalProgram
Experimental data, photos and results

File: CL15_B Spectrum 1.txt
#FORMAT      : EMSA/MAS Spectral Data File
#VERSION     : 1.0
#TITLE       : Spectrum 1
#DATE        : 04-JAN-2022
#TIME        : 13:21
#OWNER       :
#NPOINTS     : 2048.0
#NCOLUMNS    : 1.0
#XUNITS      : keV
#YUNITS      : counts
#DATATYPE    : XY
#XPERCHAN    : 0.01
#OFFSET      : -0.2
#SIGNALTYPE  : EDS
#CHOFFSET    : 20.0
#LIVETIME    : 40.0
#REALTIME    : 41.943
#BEAMKV      : 20.0
#MAGCAM      : 500.0
#XTILTSTGE   : 0.0
#AZIMANGLE   : 0.0
#ELEVANGLE   : 35.0
#XPOSITION mm: -8.1984
#YPOSITION mm: 1.1637
#ZPOSITION mm: 10.0000
##OXINSTPT   : 4
##OXINSTSTROB: 43.49
##OXINSTNDET : 1
##OXINSTELEMS: 6,25,26,8,16,14,24
##OXINSTLABEL: 6, 0.277, C
##OXINSTLABEL: 25, 5.899, Mn
##OXINSTLABEL: 25, 6.490, Mn
##OXINSTLABEL: 25, 0.636, Mn
##OXINSTLABEL: 25, 0.556, Mn
##OXINSTLABEL: 26, 6.404, Fe
##OXINSTLABEL: 26, 7.058, Fe
##OXINSTLABEL: 26, 0.703, Fe
##OXINSTLABEL: 26, 0.615, Fe
##OXINSTLABEL: 8, 0.525, O
##OXINSTLABEL: 16, 2.308, S
##OXINSTLABEL: 16, 2.464, S
##OXINSTLABEL: 14, 1.740, Si
##OXINSTLABEL: 24, 5.415, Cr
##OXINSTLABEL: 24, 5.947, Cr
##OXINSTLABEL: 24, 0.573, Cr
##OXINSTLABEL: 24, 0.500, Cr
#SPECTRUM    : Spectral Data Starts Here
-0.20000, 0.0
-0.13000, 0.0
-0.06000, 0.0
0.01000, 1382.0
0.08000, 293.0
0.15000, 93.0
0.22000, 213.0
0.29000, 853.0
0.36000, 170.0
0.43000, 269.0
0.50000, 1025.0
0.57000, 1193.0
0.64000, 2689.0
0.71000, 7587.0
0.78000, 406.0
0.85000, 148.0
0.92000, 170.0
0.99000, 162.0
1.06000, 191.0
1.13000, 217.0
1.20000, 207.0
1.27000, 245.0
1.34000, 265.0
1.41000, 250.0
1.48000, 267.0
1.55000, 260.0
1.62000, 282.0
1.69000, 296.0
1.76000, 406.0
1.83000, 308.0
1.90000, 305.0
1.97000, 293.0
2.04000, 312.0
2.11000, 282.0
2.18000, 269.0
2.25000, 296.0
2.32000, 353.0
2.39000, 301.0
2.46000, 300.0
2.53000, 282.0
2.60000, 321.0
2.67000, 303.0
2.74000, 281.0
2.81000, 264.0
2.88000, 280.0
2.95000, 273.0
3.02000, 278.0
3.09000, 264.0
3.16000, 271.0
3.23000, 277.0
3.30000, 253.0
3.37000, 275.0
3.44000, 255.0
3.51000, 231.0
3.58000, 259.0
3.65000, 250.0
3.72000, 244.0
3.79000, 243.0
3.86000, 237.0
3.93000, 238.0
4.00000, 223.0
4.07000, 224.0
4.14000, 220.0
4.21000, 232.0
4.28000, 207.0
4.35000, 218.0
4.42000, 189.0
4.49000, 204.0
4.56000, 227.0
4.63000, 244.0
4.70000, 236.0
4.77000, 203.0
4.84000, 200.0
4.91000, 218.0
4.98000, 195.0
5.05000, 180.0
5.12000, 204.0
5.19000, 182.0
5.26000, 189.0
5.33000, 181.0
5.40000, 233.0
5.47000, 211.0
5.54000, 175.0
5.61000, 173.0
5.68000, 149.0
5.75000, 178.0
5.82000, 265.0
5.89000, 436.0
5.96000, 319.0
6.03000, 164.0
6.10000, 164.0
6.17000, 189.0
6.24000, 404.0
6.31000, 3880.0
6.38000, 12503.0
6.45000, 8965.0
6.52000, 1511.0
6.59000, 208.0
6.66000, 147.0
6.73000, 133.0
6.80000, 145.0
6.87000, 176.0
6.94000, 417.0
7.01000, 1376.0
7.08000, 1651.0
7.15000, 554.0
7.22000, 128.0
7.29000, 80.0
7.36000, 71.0
7.43000, 94.0
7.50000, 74.0
7.57000, 81.0
7.64000, 72.0
7.71000, 83.0
7.78000, 72.0
7.85000, 99.0
7.92000, 64.0
7.99000, 88.0
8.06000, 105.0
8.13000, 69.0
8.20000, 74.0
8.27000, 81.0
8.34000, 80.0
8.41000, 60.0
8.48000, 60.0
8.55000, 82.0
8.62000, 70.0
8.69000, 78.0
8.76000, 58.0
8.83000, 67.0
8.90000, 71.0
8.97000, 76.0
9.04000, 88.0
9.11000, 64.0
9.18000, 62.0
9.25000, 57.0
9.32000, 64.0
9.39000, 61.0
9.46000, 70.0
9.53000, 55.0
9.60000, 53.0
9.67000, 72.0
9.74000, 65.0
9.81000, 56.0
9.88000, 49.0
9.95000, 66.0
10.02000, 56.0
10.09000, 60.0
10.16000, 53.0
10.23000, 59.0
10.30000, 47.0
10.37000, 45.0
10.44000, 68.0
10.51000, 60.0
10.58000, 39.0
10.65000, 41.0
10.72000, 58.0
10.79000, 62.0
10.86000, 39.0
10.93000, 48.0
11.00000, 37.0
11.07000, 53.0
11.14000, 42.0
11.21000, 52.0
11.28000, 43.0
11.35000, 55.0
11.42000, 46.0
11.49000, 29.0
11.56000, 44.0
11.63000, 32.0
11.70000, 37.0
11.77000, 34.0
11.84000, 38.0
11.91000, 27.0
11.98000, 35.0
12.05000, 42.0
12.12000, 38.0
12.19000, 42.0
12.26000, 42.0
12.33000, 25.0
12.40000, 42.0
12.47000, 38.0
12.54000, 43.0
12.61000, 30.0
12.68000, 37.0
12.75000, 35.0
12.82000, 42.0
12.89000, 32.0
12.96000, 29.0
13.03000, 37.0
13.10000, 33.0
13.17000, 26.0
13.24000, 26.0
13.31000, 26.0
13.38000, 25.0
13.45000, 31.0
13.52000, 19.0
13.59000, 34.0
13.66000, 31.0
13.73000, 22.0
13.80000, 36.0
13.87000, 29.0
13.94000, 18.0
14.01000, 17.0
14.08000, 17.0
14.15000, 22.0
14.22000, 30.0
14.29000, 16.0
14.36000, 16.0
14.43000, 21.0
14.50000, 18.0
14.57000, 16.0
14.64000, 17.0
14.71000, 13.0
14.78000, 12.0
14.85000, 14.0
14.92000, 18.0
14.99000, 12.0
15.06000, 23.0
15.13000, 15.0
15.20000, 13.0
15.27000, 13.0
15.34000, 8.0
15.41000, 13.0
15.48000, 15.0
15.55000, 18.0
15.62000, 15.0
15.69000, 17.0
15.76000, 14.0
15.83000, 7.0
15.90000, 8.0
15.97000, 18.0
16.04000, 16.0
16.11000, 11.0
16.18000, 8.0
16.25000, 14.0
16.32000, 11.0
16.39000, 9.0
16.46000, 4.0
16.53000, 9.0
16.60000, 11.0
16.67000, 6.0
16.74000, 6.0
16.81000, 8.0
16.88000, 6.0
16.95000, 3.0
17.02000, 7.0
17.09000, 6.0
17.16000, 5.0
17.23000, 3.0
17.30000, 6.0
17.37000, 6.0
17.44000, 8.0
17.51000, 9.0
17.58000, 4.0
17.65000, 8.0
17.72000, 3.0
17.79000, 1.0
17.86000, 1.0
17.93000, 6.0
18.00000, 6.0
18.07000, 4.0
18.14000, 3.0
18.21000, 2.0
18.28000, 5.0
18.35000, 5.0
18.42000, 3.0
18.49000, 2.0
18.56000, 3.0
18.63000, 3.0
18.70000, 2.0
18.77000, 0.0
18.84000, 3.0
18.91000, 1.0
18.98000, 1.0
19.05000, 0.0
19.12000, 1.0
19.19000, 3.0
19.26000, 2.0
19.33000, 0.0
19.40000, 1.0
19.47000, 4.0
19.54000, 0.0
19.61000, 1.0
19.68000, 0.0
19.75000, 0.0
19.82000, 1.0
19.89000, 0.0
19.96000, 0.0
20.03000, 0.0
20.10000, 0.0
20.17000, 0.0
20.24000, 0.0
20.27000, 0.0
#ENDOFDATA   :